date	time	group	subject	build	blocknum	trialnum	blockcode	trialcode	pretrialpause	posttrialpause	windowcenter	trialduration	trialtimeout	blocktimeout	response	correct	latency	inwindow	stimulusnumber1	stimulusitem1	stimulusvpos1	stimulushpos1	stimulusonset1	stimulusnumber2	stimulusitem2	stimulusvpos2	stimulushpos2	stimulusonset2	stimulusnumber3	stimulusitem3	stimulusvpos3	stimulushpos3	stimulusonset3
050918	11:50:27	1	1	4.0.10.0	2	1	EC_Training_Block_1	EC_Training_Trial_Struan_CS1_2	750	0	0	5500	0	0	0	0	4251	0	1	STRUAN	50pct	30pct	491	3	JOY	60pct	70pct	491	2	MISERY	40pct	70pct	491
050918	11:50:27	1	1	4.0.10.0	2	2	EC_Training_Block_1	EC_Training_Trial_Struan_CS1_1	750	0	0	5500	0	0	0	0	4251	0	1	STRUAN	50pct	30pct	491	3	JOY	40pct	70pct	491	2	MISERY	60pct	70pct	491
050918	11:50:27	1	1	4.0.10.0	2	3	EC_Training_Block_1	EC_Training_Trial_Morag_CS2_1	750	0	0	5500	0	0	29	0	2539	0	1	MORAG	50pct	30pct	491	4	RAINBOW	40pct	70pct	491	5	CANCER	60pct	70pct	491
050918	12:06:41	1	1	4.0.10.0	2	1	EC_Training_Block_1	EC_Training_Trial_Struan_CS1_1	750	0	0	5500	0	0	0	0	4251	0	1	STRUAN	50pct	30pct	491	6	SMILE	40pct	70pct	491	2	MISERY	60pct	70pct	491
050918	12:06:41	1	1	4.0.10.0	2	2	EC_Training_Block_1	EC_Training_Trial_Morag_CS2_2	750	0	0	5500	0	0	Ctrl+'Q'	1	2804	0	1	MORAG	50pct	30pct	491	2	PARADISE	60pct	70pct	491	4	WAR	40pct	70pct	491
050918	12:11:26	1	1	4.0.10.0	2	1	EC_Training_Block_1	EC_Training_Trial_Morag_CS2_1	750	0	0	5500	0	0	0	0	4251	0	1	MORAG	50pct	30pct	491	3	JOY	40pct	70pct	491	5	CANCER	60pct	70pct	491
050918	12:11:26	1	1	4.0.10.0	2	2	EC_Training_Block_1	EC_Training_Trial_Struan_CS1_2	750	0	0	5500	0	0	0	0	4251	0	1	STRUAN	50pct	30pct	491	5	PLEASURE	60pct	70pct	491	2	MISERY	40pct	70pct	491
050918	12:11:26	1	1	4.0.10.0	2	3	EC_Training_Block_1	EC_Training_Trial_Morag_CS2_1	750	0	0	5500	0	0	0	0	4251	0	1	MORAG	50pct	30pct	491	1	LOVE	40pct	70pct	491	3	VOMIT	60pct	70pct	491
050918	12:11:26	1	1	4.0.10.0	2	4	EC_Training_Block_1	EC_Training_Trial_Morag_CS2_2	750	0	0	5500	0	0	0	0	4251	0	1	MORAG	50pct	30pct	491	3	JOY	60pct	70pct	491	1	HELL	40pct	70pct	491
050918	12:11:26	1	1	4.0.10.0	2	5	EC_Training_Block_1	EC_Training_Trial_Struan_CS1_2	750	0	0	5500	0	0	0	0	4251	0	1	STRUAN	50pct	30pct	491	5	PLEASURE	60pct	70pct	491	4	WAR	40pct	70pct	491
050918	12:11:26	1	1	4.0.10.0	2	6	EC_Training_Block_1	EC_Training_Trial_Struan_CS1_1	750	0	0	5500	0	0	0	0	4251	0	1	STRUAN	50pct	30pct	491	3	JOY	40pct	70pct	491	2	MISERY	60pct	70pct	491
050918	12:11:26	1	1	4.0.10.0	2	7	EC_Training_Block_1	EC_Training_Trial_Morag_CS2_2	750	0	0	5500	0	0	0	0	4251	0	1	MORAG	50pct	30pct	491	6	SMILE	60pct	70pct	491	1	HELL	40pct	70pct	491
050918	12:11:26	1	1	4.0.10.0	2	8	EC_Training_Block_1	EC_Training_Trial_Struan_CS1_1	750	0	0	5500	0	0	0	0	4251	0	1	STRUAN	50pct	30pct	491	5	PLEASURE	40pct	70pct	491	6	HATE	60pct	70pct	491
050918	12:11:26	1	1	4.0.10.0	2	9	EC_Training_Block_1	EC_Training_Trial_Morag_CS2_2	750	0	0	5500	0	0	0	0	4251	0	1	MORAG	50pct	30pct	491	5	PLEASURE	60pct	70pct	491	4	WAR	40pct	70pct	491
050918	12:11:26	1	1	4.0.10.0	2	10	EC_Training_Block_1	EC_Training_Trial_Struan_CS1_1	750	0	0	5500	0	0	0	0	4251	0	1	STRUAN	50pct	30pct	491	6	SMILE	40pct	70pct	491	4	WAR	60pct	70pct	491
050918	12:11:26	1	1	4.0.10.0	2	11	EC_Training_Block_1	EC_Training_Trial_Struan_CS1_2	750	0	0	5500	0	0	0	0	4251	0	1	STRUAN	50pct	30pct	491	6	SMILE	60pct	70pct	491	6	HATE	40pct	70pct	491
050918	12:11:26	1	1	4.0.10.0	2	12	EC_Training_Block_1	EC_Training_Trial_Morag_CS2_2	750	0	0	5500	0	0	0	0	4251	0	1	MORAG	50pct	30pct	491	4	RAINBOW	60pct	70pct	491	2	MISERY	40pct	70pct	491
050918	12:11:26	1	1	4.0.10.0	2	13	EC_Training_Block_1	EC_Training_Trial_Morag_CS2_1	750	0	0	5500	0	0	0	0	4251	0	1	MORAG	50pct	30pct	491	4	RAINBOW	40pct	70pct	491	5	CANCER	60pct	70pct	491
050918	12:11:26	1	1	4.0.10.0	2	14	EC_Training_Block_1	EC_Training_Trial_Struan_CS1_1	750	0	0	5500	0	0	0	0	4251	0	1	STRUAN	50pct	30pct	491	6	SMILE	40pct	70pct	491	6	HATE	60pct	70pct	491
050918	12:11:26	1	1	4.0.10.0	2	15	EC_Training_Block_1	EC_Training_Trial_Morag_CS2_1	750	0	0	5500	0	0	0	0	4251	0	1	MORAG	50pct	30pct	491	1	LOVE	40pct	70pct	491	2	MISERY	60pct	70pct	491
050918	12:11:26	1	1	4.0.10.0	2	16	EC_Training_Block_1	EC_Training_Trial_Struan_CS1_2	750	0	0	5500	0	0	0	0	4251	0	1	STRUAN	50pct	30pct	491	6	SMILE	60pct	70pct	491	5	CANCER	40pct	70pct	491
050918	12:11:26	1	1	4.0.10.0	3	1	EC_Training_Block_2	EC_Training_Trial_Morag_CS2_2	750	0	0	5500	0	0	0	0	4251	0	1	MORAG	50pct	30pct	491	5	PLEASURE	60pct	70pct	491	3	VOMIT	40pct	70pct	491
050918	12:11:26	1	1	4.0.10.0	3	2	EC_Training_Block_2	EC_Training_Trial_Struan_CS1_2	750	0	0	5500	0	0	0	0	4251	0	1	STRUAN	50pct	30pct	491	3	JOY	60pct	70pct	491	2	MISERY	40pct	70pct	491
050918	12:11:26	1	1	4.0.10.0	3	3	EC_Training_Block_2	EC_Training_Trial_Morag_CS2_1	750	0	0	5500	0	0	0	0	4251	0	1	MORAG	50pct	30pct	491	5	PLEASURE	40pct	70pct	491	1	HELL	60pct	70pct	491
050918	12:11:26	1	1	4.0.10.0	3	4	EC_Training_Block_2	EC_Training_Trial_Struan_CS1_2	750	0	0	5500	0	0	0	0	4251	0	1	STRUAN	50pct	30pct	491	2	PARADISE	60pct	70pct	491	6	HATE	40pct	70pct	491
050918	12:11:26	1	1	4.0.10.0	3	5	EC_Training_Block_2	EC_Training_Trial_Morag_CS2_1	750	0	0	5500	0	0	Ctrl+'Q'	1	0	0	1	MORAG	50pct	30pct	491	6	SMILE	40pct	70pct	491	5	CANCER	60pct	70pct	491
050918	12:22:43	1	1	4.0.10.0	2	1	EC_Training_Block_1	EC_Training_Trial_Morag_CS2_1	750	0	0	5500	0	0	0	0	4251	0	1	MORAG	50pct	30pct	491	2	PARADISE	40pct	70pct	491	2	MISERY	60pct	70pct	491
050918	12:22:43	1	1	4.0.10.0	2	2	EC_Training_Block_1	EC_Training_Trial_Struan_CS1_2	750	0	0	5500	0	0	0	0	4251	0	1	STRUAN	50pct	30pct	491	3	JOY	60pct	70pct	491	6	HATE	40pct	70pct	491
050918	12:22:43	1	1	4.0.10.0	2	3	EC_Training_Block_1	EC_Training_Trial_Struan_CS1_1	750	0	0	5500	0	0	Ctrl+'Q'	1	1193	0	1	STRUAN	50pct	30pct	491	1	LOVE	40pct	70pct	491	6	HATE	60pct	70pct	491
052218	12:29:44	1	1	4.0.10.0	2	1	EC_Training_Block_1	EC_Training_Trial_Morag_CS2_1	750	0	0	5500	0	0	0	0	4259	0	1	MORAG	50pct	30pct	491	6	SMILE	40pct	70pct	491	5	CANCER	60pct	70pct	491
052218	12:29:44	1	1	4.0.10.0	2	2	EC_Training_Block_1	EC_Training_Trial_Struan_CS1_1	750	0	0	5500	0	0	0	0	4259	0	1	STRUAN	50pct	30pct	491	3	JOY	40pct	70pct	491	6	HATE	60pct	70pct	491
052218	12:29:44	1	1	4.0.10.0	2	3	EC_Training_Block_1	EC_Training_Trial_Struan_CS1_2	750	0	0	5500	0	0	0	0	4259	0	1	STRUAN	50pct	30pct	491	5	PLEASURE	60pct	70pct	491	3	VOMIT	40pct	70pct	491
052218	12:29:44	1	1	4.0.10.0	2	4	EC_Training_Block_1	EC_Training_Trial_Morag_CS2_2	750	0	0	5500	0	0	Ctrl+'Q'	1	3620	0	1	MORAG	50pct	30pct	491	2	PARADISE	60pct	70pct	491	5	CANCER	40pct	70pct	491
